File: Experimental data/Figure 2a.nor
# XDI/1.0 Demeter/0.9.26
# Demeter.output_filetype: multicolumn normalized mu(E)
# Element.symbol: Ru
# Element.edge: K
# Column.1: energy eV
# Column.2: Ru_foil
# Column.3: RuSA_900
# Column.4: Ruac3
# Column.5: RuO2
#------------------------
#  energy  Ru_foil  RuSA_900  Ruac3  RuO2
  21922.525       0.00209388   0.00180833   0.00218807   0.00227978
  21927.968       0.00178544   0.0021826   0.00219414   0.00210291
  21931.913       0.00156238   0.001372   0.00185891   0.00187059
  21937.211       0.00126441   0.00126329   0.00146576   0.00147471
  21942.101       0.000990501   0.000768766   0.00110049   0.00104322
  21948.498       0.000704044   0.000859442   0.000968461   0.000839774
  21951.807       0.000461238  -9.91195e-05   0.000863145   0.000706408
  21957.347       0.000285761   0.000913898   0.000295451   0.000341174
  21962.001       8.058e-07  -8.41924e-05   0.000499668   0.0004712
  21967.505      -0.000244805  -0.000223981  -0.000245827  -0.000144223
  21972.409      -0.000481884  -0.000321045  -0.000239793  -0.000203114
  21977.110      -0.000638535  -0.000914521  -0.000443785  -0.000465646
  21982.115      -0.000822477  -0.000812207  -0.000646757  -0.000710359
  21987.561      -0.000986837  -0.00131054  -0.0010037  -0.00098239
  21993.243      -0.00116872  -0.000928604  -0.00101576  -0.000997364
  21996.868      -0.00119997  -0.00125678  -0.00108891  -0.00110503
  22002.280      -0.00136476  -0.00144349  -0.00125559  -0.00132632
  22006.953      -0.00139445  -0.00155734  -0.00149983  -0.00139266
  22013.388      -0.00146667  -0.00144651  -0.00141148  -0.00135082
  22016.827      -0.00146113  -0.00132832  -0.00133483  -0.00130111
  22022.318      -0.00137888  -0.0014185  -0.00147125  -0.00132171
  22027.041      -0.00124912  -0.000963293  -0.00147593  -0.00127974
  22032.661      -0.00105534  -0.00100776  -0.00134678  -0.00120547
  22037.788      -0.000852544  -0.000636271  -0.00102693  -0.00112288
  22041.966      -0.000461929  -0.000719979  -0.000742423  -0.000774099
  22047.193       5.51181e-05   0.000218295  -0.000253408  -0.000439466
  22052.093       0.000853839   0.000514729   0.00017204   0.000117345
  22058.568       0.00164088   0.00175376   0.00109188   0.00102664
  22061.801       0.00245371   0.00264266   0.0015438   0.00157867
  22067.328       0.00416993   0.00400435   0.00305348   0.00301887
  22072.001       0.00631593   0.00535939   0.00453412   0.00451207
  22077.437       0.00893406   0.0082256   0.00695953   0.00688651
  22082.475       0.0121978   0.0110877   0.00924399   0.00905994
  22087.071       0.0180282   0.0159806   0.0135741   0.0132035
  22092.168       0.0268429   0.0240623   0.0199859   0.0194865
  22097.434       0.0478881   0.0419189   0.0322784   0.0314419
  22097.531       0.0480191   0.0422644   0.0325513   0.0317096
  22098.127       0.0505271   0.0443499   0.034228   0.0333544
  22098.585       0.0524928   0.045941   0.0355165   0.0346184
  22099.028       0.054413   0.0475685   0.0367628   0.035841
  22099.611       0.0569831   0.0499113   0.038403   0.03745
  22100.165       0.0596843   0.0523954   0.0399616   0.0389789
  22100.637       0.0622694   0.0544649   0.0412895   0.0402815
  22101.122       0.0652374   0.057315   0.0426539   0.04162
  22101.566       0.0682385   0.0597709   0.0439031   0.0428454
  22102.093       0.0721375   0.0628678   0.0453857   0.0442998
  22102.606       0.0769868   0.0672327   0.0485421   0.0476166
  22103.049       0.0822141   0.0716951   0.0517701   0.0511216
  22103.535       0.0891987   0.0775975   0.0553113   0.0549667
  22104.048       0.0987389   0.0855746   0.0590493   0.0590255
  22104.547       0.109693       0.0952095   0.0626853   0.0629735
  22105.033       0.12386       0.107403       0.0662265   0.0668186
  22105.518       0.139327       0.120525       0.0697605   0.0706559
  22106.004       0.158395       0.135499       0.0733017   0.074501
  22106.517       0.181564       0.15251       0.0822838   0.0828983
  22106.961       0.203824       0.168795       0.0905588   0.0913128
  22107.488       0.230991       0.189702       0.100381       0.1013
  22107.960       0.257647       0.208659       0.109178       0.110245
  22108.515       0.288587       0.230841       0.119521       0.120763
  22109.042       0.316596       0.250916       0.129343       0.130751
  22109.597       0.345884       0.271977       0.139687       0.141269
  22110.097       0.370073       0.290643       0.149006       0.150744
  22110.610       0.393994       0.309469       0.158567       0.160467
  22111.110       0.417331       0.327054       0.167885       0.169942
  22111.568       0.435611       0.344694       0.18427       0.182429
  22112.054       0.454187       0.36251       0.207832       0.198674
  22112.526       0.471609       0.381916       0.230716       0.214451
  22113.039       0.489764       0.403821       0.255587       0.231599
  22113.581       0.509852       0.427947       0.281864       0.249716
  22114.066       0.528915       0.452761       0.305378       0.265928
  22114.538       0.549132       0.478179       0.328261       0.281705
  22115.010       0.57059       0.50574       0.351145       0.297483
  22115.469       0.594182       0.535133       0.373398       0.312825
  22115.996       0.622012       0.569826       0.398948       0.330441
  22116.510       0.654614       0.603776       0.438427       0.360035
  22116.968       0.68616       0.634046       0.48013       0.393448
  22117.454       0.72076       0.66225       0.524383       0.428905
  22118.037       0.757774       0.695567       0.577468       0.471438
  22118.621       0.790628       0.725476       0.630643       0.514044
  22119.162       0.815558       0.749503       0.679904       0.553513
  22119.621       0.834771       0.767748       0.721698       0.587
  22120.135       0.855338       0.787608       0.7685       0.624499
  22120.607       0.87168       0.804692       0.811478       0.658934
  22121.121       0.888818       0.823106       0.85828       0.696433
  22121.565       0.903378       0.839189       0.898708       0.728825
  22122.065       0.917133       0.856122       0.927491       0.760853
  22122.579       0.930979       0.873414       0.945019       0.788741
  22123.121       0.944355       0.891889       0.963502       0.818148
  22123.663       0.956897       0.91027       0.981985       0.847555
  22124.108       0.966579       0.924331       0.99716       0.871699
  22124.608       0.977312       0.94348        1.01421       0.898828
  22125.094       0.987036       0.960659        1.03078       0.925196
  22125.581       0.995586       0.97912        1.04739       0.951619
  22126.039        1.00156       0.995751        1.06301       0.976469
  22126.540        1.00514        1.01284        1.08009        1.00365
  22126.998        1.00509        1.02726        1.09026        1.03373
  22127.540        1.00116        1.0424        1.0997        1.06956
  22127.971       0.994641        1.05317        1.10564        1.0966
  22128.527       0.983725        1.06493        1.11269        1.12535
  22129.042       0.97173        1.07436        1.11946        1.14701
  22129.528       0.960567        1.08279        1.12666        1.16262
  22130.057       0.948544        1.09058        1.13664        1.17472
  22130.571       0.937879        1.09738        1.1477        1.18252
  22131.002       0.929851        1.10303        1.15765        1.18577
  22131.586       0.921597        1.10985        1.1722        1.18755
  22132.003       0.917098        1.11425        1.18227        1.18696
  22132.545       0.912836        1.11949        1.19548        1.18538
  22133.032       0.910602        1.12376        1.20746        1.18329
  22133.574       0.909267        1.12712        1.21971        1.18081
  22134.131       0.908969        1.13063        1.23137        1.17827
  22134.618       0.909456        1.13276        1.24046        1.17598
  22135.049       0.910468        1.13392        1.24759        1.17434
  22135.591       0.912238        1.13493        1.25479        1.17272
  22136.050       0.914097        1.13473        1.26044        1.17182
  22136.537       0.916309        1.13373        1.26554        1.17127
  22136.996       0.918625        1.13105        1.26882        1.17132
  22137.511       0.921758        1.12669        1.27021        1.17197
  22137.956       0.924846        1.12085        1.26917        1.17314
  22138.457       0.928989        1.11346        1.26446        1.17493
  22138.986       0.934286        1.10379        1.25529        1.17692
  22139.459       0.940192        1.0947        1.24145        1.17816
  22140.043       0.948228        1.08365        1.22081        1.1785
  22140.628       0.956473        1.07323        1.19639        1.17652
  22141.059       0.962618        1.06606        1.17736        1.17377
  22141.532       0.969619        1.05853        1.15735        1.16985
  22142.075       0.977129        1.05085        1.13681        1.16396
  22142.660       0.986024        1.04268        1.11416        1.15689
  22143.077       0.992471        1.03788        1.1        1.15119
  22143.634        1.00082        1.0311        1.08161        1.14336
  22144.135        1.00862        1.025        1.06534        1.13665
  22144.581        1.01551        1.01947        1.053        1.12986
  22145.096        1.02415        1.01254        1.03765        1.12122
  22145.569        1.03219        1.00664        1.02303        1.11235
  22146.154        1.0421       0.999395        1.005        1.1011
  22146.585        1.04979       0.994196       0.99214        1.09136
  22147.073        1.05983       0.988467       0.97718        1.08103
  22147.560        1.06988       0.981605       0.962831        1.07038
  22148.033        1.08025       0.974996       0.949037        1.05868
  22148.535        1.09127       0.967912       0.933459        1.04454
  22149.008        1.10099       0.962267       0.91929        1.02918
  22149.538        1.11018       0.956511       0.903017        1.0107
  22149.997        1.11656       0.951805       0.889679       0.995444
  22150.526        1.12153       0.948104       0.876379       0.978931
  22150.972        1.12351       0.945569       0.867259       0.965711
  22151.488        1.12331       0.943499       0.858875       0.952259
  22152.003        1.12033       0.941794       0.852845       0.940887
  22152.588        1.11433       0.940959       0.847926       0.929379
  22153.117        1.10678       0.94031       0.845377       0.921855
  22153.605        1.09855       0.940208       0.844576       0.916325
  22154.037        1.08922       0.94069       0.844778       0.912665
  22154.594        1.0783       0.940725       0.845679       0.909138
  22155.068        1.06872       0.941339       0.84717       0.906926
  22155.598        1.05734       0.942247       0.84946       0.905031
  22156.085        1.04718       0.942628       0.851788       0.903584
  22156.545        1.03721       0.94334       0.854484       0.902651
  22157.061        1.0259       0.944251       0.85763       0.901749
  22157.521        1.01653       0.945041       0.860698       0.900913
  22158.023        1.00604       0.945797       0.864176       0.899983
  22158.524       0.995117       0.946474       0.867954       0.899112
  22159.012       0.984406       0.947618       0.871813       0.898291
  22159.514       0.973679       0.948415       0.876401       0.897228
  22160.030       0.964183       0.949234       0.881377       0.896053
  22160.504       0.957167       0.950528       0.886433       0.894886
  22161.006       0.951395       0.951209       0.891961       0.893625
  22161.480       0.947424       0.952341       0.897361       0.892719
  22162.024       0.944533       0.953697       0.903583       0.891744
  22162.526       0.943043       0.95447       0.908274       0.891752
  22163.042       0.942512       0.955706       0.913075       0.891778
  22163.572       0.942557       0.956598       0.916907       0.892516
  22164.088       0.942893       0.957678       0.920363       0.893385
  22164.617       0.943502       0.958652       0.923172       0.894497
  22165.064       0.944196       0.959484       0.925227       0.895522
  22165.608       0.94507       0.960447       0.927486       0.896843
  22166.040       0.945933       0.96109       0.929131       0.897942
  22166.682       0.947395       0.962317       0.931411       0.899655
  22167.086       0.948364       0.963325       0.932794       0.900758
  22168.244       0.95127       0.965564       0.936278       0.904212
  22169.137       0.953778       0.967511       0.938911       0.907056
  22170.100       0.957113       0.96988       0.941449       0.910084
  22171.063       0.960404       0.972987       0.944177       0.913545
  22172.040       0.963351       0.97582       0.947417       0.917357
  22173.017       0.965617       0.978697       0.950887       0.920958
  22174.022       0.966954       0.981446       0.954241       0.924294
  22175.069       0.967704       0.983956       0.958328       0.92776
  22176.116       0.968164       0.986801       0.9629       0.931563
  22177.107       0.968606       0.989076       0.967374       0.935793
  22178.112       0.969393       0.991403       0.972653       0.940817
  22179.146       0.970884       0.993581       0.97782       0.946061
  22180.081       0.973239       0.996075       0.982923       0.951541
  22181.059       0.977128       0.999275       0.989086       0.958253
  22181.995       0.983219        1.00221       0.996405       0.965157
  22182.959       0.991667        1.00621        1.00571       0.973409
  22184.021        1.00237        1.01012        1.01752       0.983234
  22185.110        1.01316        1.01421        1.03026       0.993069
  22186.172        1.02146        1.01717        1.04135        1.00161
  22187.207        1.02826        1.01996        1.04933        1.00822
  22188.241        1.03408        1.02216        1.05584        1.01401
  22189.219        1.03918        1.02398        1.06113        1.01911
  22190.212        1.04428        1.02621        1.06584        1.02431
  22191.092        1.04837        1.02816        1.07        1.02908
  22192.043        1.05253        1.02989        1.0742        1.03444
  22193.036        1.05569        1.03154        1.0784        1.04048
  22194.071        1.0568        1.03309        1.08225        1.04792
  22195.050        1.05496        1.03461        1.0849        1.05515
  22196.085        1.0504        1.03443        1.08571        1.06193
  22197.078        1.04414        1.03403        1.08466        1.06672
  22198.099        1.03734        1.03368        1.08205        1.06991
  22199.106        1.03032        1.03266        1.07827        1.0713
  22200.100        1.02396        1.03142        1.07402        1.07154
  22201.135        1.01764        1.03001        1.06943        1.07088
  22202.045        1.01209        1.02866        1.06545        1.0699
  22203.024        1.00613        1.02676        1.06071        1.06825
  22204.018        1.00018        1.02491        1.05529        1.06608
  22204.928       0.995729        1.02264        1.04946        1.06323
  22205.964       0.992362        1.01965        1.04214        1.05905
  22207.070       0.990967        1.01754        1.03438        1.05393
  22208.218       0.9908        1.01569        1.02764        1.04904
  22209.212       0.991164        1.01464        1.02339        1.04588
  22210.249       0.991625        1.01385        1.02009        1.04283
  22211.173       0.992058        1.01312        1.01788        1.04087
  22212.210       0.992444        1.01206        1.01536        1.03867
  22213.204       0.992696        1.01097        1.01326        1.03658
  22214.101       0.992597        1.01027        1.01148        1.03461
  22215.095       0.992194        1.00895        1.00947        1.03213
  22216.020       0.991193        1.00791        1.00717        1.02933
  22217.015       0.989642        1.00657        1.00443        1.02583
  22218.038       0.987937        1.00528        1.00147        1.02171
  22218.977       0.986554        1.00398       0.999022        1.01801
  22220.043       0.985706        1.00331       0.996882        1.01416
  22221.052       0.985457        1.00292       0.99489        1.0106
  22222.145       0.985855        1.00252       0.993184        1.00728
  22223.155       0.986647        1.00256       0.991774        1.0046
  22224.179       0.988001        1.00238       0.990539        1.00191
  22225.118       0.989815        1.00207       0.989598       0.999561
  22226.058       0.992545        1.00186       0.988306       0.997078
  22227.012       0.996509        1.00174       0.987108       0.99411
  22227.993        1.00148        1.00137       0.985443       0.991041
  22229.032        1.00733        1.00105       0.983399       0.987372
  22230.140        1.0129        1.00067       0.981485       0.984062
  22231.178        1.01744        1.00066       0.98003       0.981797
  22232.189        1.0211        1.00043       0.978937       0.980264
  22233.199        1.02425        1.00011       0.978417       0.979181
  22234.195        1.02753        1.00003       0.977699       0.978408
  22235.206        1.03052        1.00024       0.977064       0.977658
  22236.189        1.03354        1.00006       0.976517       0.97695
  22237.073        1.03635       0.99945       0.975776       0.976305
  22238.056        1.03951       0.999121       0.975173       0.975437
  22239.039        1.04193       0.998187       0.974231       0.974709
  22240.036        1.04342       0.997032       0.973224       0.973635
  22241.061        1.04346       0.996279       0.972246       0.972745
  22242.044        1.04224       0.995849       0.971465       0.972208
  22243.056        1.04       0.995245       0.970869       0.971579
  22244.039        1.03732       0.994561       0.970579       0.971502
  22245.135        1.03384       0.994101       0.970531       0.971405
  22246.090        1.03032       0.993623       0.970556       0.97141
  22247.102        1.02586       0.993639       0.971021       0.971694
  22248.043        1.02068       0.993323       0.97133       0.972015
  22248.971        1.01415       0.993141       0.971692       0.972284
  22249.997        1.00641       0.992677       0.972465       0.972812
  22250.967       0.998495       0.99218       0.973415       0.973408
  22252.021       0.991135       0.992586       0.974974       0.974146
  22253.174       0.985049       0.992833       0.976767       0.975121
  22254.144       0.980915       0.993029       0.978228       0.97594
  22255.143       0.977509       0.993567       0.979742       0.97662
  22256.310       0.973865       0.99398       0.981257       0.977483
  22257.140       0.971369       0.99478       0.982437       0.978184
  22258.167       0.968382       0.995145       0.983898       0.979051
  22259.067       0.96549       0.995764       0.985278       0.979851
  22260.122       0.962133       0.996283       0.987163       0.980872
  22261.022       0.959337       0.996911       0.989065       0.981933
  22262.007       0.95728       0.997675       0.991179       0.983131
  22263.035       0.956298       0.998835       0.993734       0.984307
  22264.020       0.956782       0.999563       0.99624       0.985418
  22265.075       0.958303        1.00046       0.999037       0.986389
  22266.047       0.960487        1.0015        1.00162       0.987255
  22267.074       0.96345        1.00237        1.00389       0.987853
  22269.200       0.970959        1.00429        1.00811       0.988823
  22271.073       0.980373        1.00535        1.01145       0.98936
  22272.946       0.991469        1.00672        1.01473       0.989749
  22275.172        1.0016        1.00752        1.01794       0.990485
  22277.426        1.00733        1.00829        1.01995       0.991855
  22279.399        1.01119        1.00933        1.02117       0.993646
  22281.274        1.01471        1.0095        1.02208       0.995973
  22283.149        1.01862        1.00965        1.02268       0.999061
  22285.095        1.02206        1.00955        1.02313        1.00434
  22287.125        1.02436        1.0094        1.023        1.01116
  22289.199        1.02534        1.00884        1.02247        1.01823
  22291.160        1.02587        1.00888        1.02199        1.02401
  22293.121        1.02596        1.00852        1.02152        1.02887
  22294.970        1.02607        1.00755        1.02069        1.03283
  22297.031        1.02628        1.00633        1.01921        1.03532
  22299.247        1.0269        1.00608        1.01774        1.03518
  22301.662        1.02769        1.00596        1.01672        1.03359
  22303.145        1.02815        1.00602        1.0162        1.03234
  22305.165        1.02837        1.00531        1.01504        1.02974
  22307.030        1.02734        1.00414        1.01352        1.02571
  22309.022        1.02417        1.00295        1.01107        1.01976
  22311.184        1.0191        1.00181        1.00799        1.01283
  22313.248        1.01414        1.00068        1.00542        1.00662
  22315.157        1.00903        1.00004        1.00317        1.00146
  22317.009        1.00209       0.999012        1.00056       0.996479
  22318.961       0.993041       0.997427       0.997069       0.990667
  22321.309       0.984586       0.99617       0.993179       0.985444
  22323.531       0.979099       0.995952       0.990734       0.983228
  22325.186       0.975285       0.996016       0.989373       0.982615
  22327.281       0.969642       0.995636       0.987815       0.982381
  22329.065       0.963838       0.994884       0.986165       0.982444
  22331.090       0.958347       0.994068       0.983683       0.982971
  22333.101       0.955607       0.993944       0.981402       0.983539
  22335.225       0.955122       0.993362       0.979661       0.984072
  22337.138       0.956215       0.993324       0.978771       0.984203
  22339.093       0.958634       0.992838       0.978273       0.984032
  22340.978       0.962407       0.993019       0.977768       0.983909
  22343.161       0.967075       0.992945       0.977674       0.984077
  22345.457       0.970645       0.993649       0.978333       0.984819
  22347.315       0.973403       0.993765       0.979192       0.985794
  22349.286       0.976511       0.994392       0.980249       0.987051
  22351.074       0.98078       0.994521       0.981253       0.988614
  22353.046       0.986642       0.994545       0.982666       0.990903
  22355.075       0.993767       0.994619       0.9844       0.993618
  22357.218        1.00115       0.995046       0.986352       0.996329
  22359.234        1.00759       0.994839       0.988229       0.998255
  22361.093        1.0139       0.995115       0.989924       0.999536
  22362.968        1.02037       0.995075       0.991665        1.00031
  22365.013        1.02592       0.994831       0.993653        1.00007
  22367.257        1.02929       0.995116       0.995421       0.998969
  22369.715        1.0319       0.99579       0.996949       0.997706
  22371.179        1.03325       0.996121       0.99788       0.996935
  22373.141        1.03498       0.996455       0.999116       0.99536
  22375.074        1.03601       0.996298       0.999942       0.992757
  22376.993        1.0353       0.995955        1.00067       0.989106
  22379.169        1.03254       0.996168        1.0014       0.984941
  22381.246        1.02899       0.996615        1.00186       0.982003
  22383.124        1.02512       0.996654        1.00215       0.980317
  22385.059        1.01974       0.996592        1.00237       0.979299
  22387.008        1.01405       0.996903        1.00228       0.979398
  22389.200        1.00976       0.997149        1.00209       0.98111
  22391.620        1.00708       0.997309        1.00224       0.983535
  22393.144        1.00561       0.997862        1.00244       0.985087
  22395.380        1.00298       0.997958        1.00255       0.987691
  22397.104       0.999845       0.998204        1.00253       0.989844
  22399.013       0.996079       0.998341        1.00229       0.992883
  22401.093       0.992121       0.998107        1.00193       0.996009
  22403.188       0.988744       0.998037        1.00159       0.998429
  22405.169       0.985871       0.997923        1.00148        1.00023
  22407.122       0.982288       0.998481        1.00131        1.0016
  22408.962       0.977594       0.997866        1.00108        1.00268
  22411.130       0.972411       0.997694        1.00057        1.00388
  22413.312       0.969099       0.99795        1.0004        1.00495
  22415.609       0.966315       0.998117        1.00053        1.00597
  22417.079       0.96445       0.998247        1.00072        1.00667
  22420.134       0.959817       0.998303        1.00079        1.00813
  22423.032       0.957494       0.998027        1.00041        1.0092
  22426.174       0.959001       0.998203        1.00001        1.0098
  22429.102       0.963457       0.997942       0.999973        1.01
  22431.945       0.971404       0.997992       0.999896        1.0097
  22435.304       0.980163       0.998225       0.999527        1.0086
  22438.978       0.986695       0.998953       0.999536        1.00758
  22441.209       0.991367       0.999086       0.999543        1.0069
  22443.970       0.999719       0.998692       0.999145        1.00494
  22447.161        1.00954       0.99838       0.998394        1.00154
  22450.195        1.01635       0.998201       0.997838       0.998298
  22453.086        1.02193       0.998007       0.997287       0.995357
  22455.936        1.02612       0.997545       0.996257       0.992145
  22459.431        1.02833       0.997764       0.99533       0.989374
  22462.769        1.02931       0.99821       0.995257       0.988296
  22465.105        1.02915       0.998149       0.99513       0.987725
  22468.030        1.02664       0.997946       0.994536       0.987376
  22471.156        1.02112       0.997728       0.994121       0.988183
  22474.139        1.01574       0.998214       0.993998       0.989947
  22476.994        1.00881       0.997817       0.993994       0.992731
  22480.194        1.00407       0.998106       0.993804       0.996931
  22483.970        1.00262       0.999131       0.994165        1.00062
  22486.310        1.0021       0.999393       0.994572        1.00247
  22489.053        1.0015       0.999403       0.994915        1.00443
  22492.041        1.00066       0.999145       0.995267        1.00562
  22495.203       0.999772       0.999651       0.995893        1.00565
  22498.178       0.998751       0.999972       0.996494        1.00497
  22500.896       0.997145       0.999442       0.997143        1.00335
  22504.391       0.99491       0.999721       0.998072        1.00059
  22507.987       0.992487        1.00047       0.999282       0.998749
  22510.160       0.990195        1.00092        1.00001       0.997907
  22512.996       0.98501        1.00058        1.00089       0.996434
  22516.149       0.980238        1.00062        1.00177       0.995195
  22519.144       0.978366        1.00077        1.00252       0.995103
  22522.011       0.978217        1.00072        1.00337       0.995881
  22524.936       0.979641        1.00039        1.00411       0.997324
  22528.582       0.981617        1.00091        1.00483       0.998934
  22531.437       0.982962        1.00156        1.00557       0.999917
  22534.061       0.984534        1.00173        1.0062        1.00076
  22537.004       0.986757        1.00178        1.00649        1.00162
  22540.178       0.989442        1.0016        1.0066        1.0024
  22543.209       0.991913        1.00173        1.00657        1.00334
  22545.952       0.995232        1.00146        1.00665        1.00395
  22549.143       0.998929        1.00129        1.00633        1.00452
  22552.913        1.00302        1.00218        1.00616        1.00545
  22555.341        1.00556        1.00231        1.00607        1.00616
  22558.043        1.00967        1.00268        1.00587        1.00669
  22560.992        1.01407        1.00219        1.00548        1.00708
  22564.274        1.01828        1.00205        1.00463        1.00762
  22567.022        1.02134        1.00219        1.00423        1.00774
  22570.856        1.02575        1.00157        1.00323        1.00766
  22575.806        1.02739        1.00195        1.00248        1.0073
  22579.209        1.02645        1.00232        1.00234        1.00713
  22583.018        1.02067        1.00192        1.0018        1.00632
  22587.307        1.01246        1.00181        1.00093        1.005
  22591.119        1.00649        1.00146        1.00074        1.00352
  22595.034        1.00222        1.0012        1.00004        1.00226
  22600.299        1.00143        1.0015       0.99989        1.00116
  22603.100        1.00125        1.00184        1.00004        1.00076
  22607.004       0.999437        1.00126       0.999958       0.999703
  22611.157       0.996053        1.00166       0.999739       0.998888
  22615.035       0.991853        1.00114       0.999732       0.998844
  22619.293       0.987108        1.00118       0.999449       0.999465
  22624.410       0.985106        1.00186        1.00008        1.00106
  22627.027       0.984317        1.00186        1.00039        1.00179
  22630.998       0.984469        1.00169        1.00045        1.003
  22635.175       0.986461        1.00171        1.00068        1.00415
  22639.032       0.989322        1.00158        1.00099        1.0051
  22643.503       0.99314        1.0017        1.0012        1.00587
  22648.310       0.996441        1.00232        1.0017        1.0066
  22650.904       0.998661        1.0021        1.00212        1.00664
  22655.117        1.00267        1.0019        1.0024        1.00556
  22659.229        1.00581        1.00197        1.00268        1.00427
  22662.920        1.00846        1.00231        1.0028        1.00242
  22667.386        1.0099        1.00221        1.00296        1.00044
  22672.174        1.01026        1.00261        1.0035       0.999684
  22674.861        1.00947        1.00276        1.00368       0.999359
  22679.098        1.0077        1.00283        1.00348       0.999405
  22683.175        1.00689        1.00283        1.00375       0.999754
  22686.933        1.00809        1.00203        1.00373        1.00053
  22691.452        1.01049        1.0024        1.00359        1.00168
  22695.768        1.01198        1.00329        1.00414        1.00227
  22698.943        1.01287        1.003        1.00441        1.00239
  22703.189        1.01211        1.00267        1.0041        1.0022
  22707.173        1.01086        1.00272        1.00406        1.00228
  22710.938        1.00895        1.00253        1.00383        1.00225
  22716.038        1.00749        1.00277        1.0039        1.0027
  22719.235        1.00633        1.00281        1.00419        1.00327
  22724.075        1.00223        1.00236        1.00393        1.0045
  22729.299       0.998736        1.00246        1.00352        1.00609
  22733.923       0.996768        1.00187        1.00352        1.0073
  22739.989       0.996702        1.00256        1.00312        1.0084
  22744.147       0.996472        1.00249        1.0033        1.00889
  22749.189       0.994966        1.00172        1.00266        1.00833
  22754.234       0.992989        1.00184        1.00234        1.00682
  22759.133       0.992774        1.00136        1.00164        1.00493
  22765.654       0.994118        1.00167        1.00124        1.00222
  22768.880       0.99578        1.00183        1.00113        1.00121
  22774.257       0.998906        1.00091        1.00066       0.99836
  22779.106        1.00114        1.00099        1.00018       0.997221
  22784.769        1.00369        1.00106       0.999563       0.996482
  22790.154        1.00457        1.00098       0.999499       0.996558
  22793.814        1.00403        1.00078       0.999343       0.996892
  22799.366        1.00209        1.00047       0.998824       0.997818
  22803.975        1.00057       0.999537       0.998803       0.99873
  22809.546        1.00072        1.00011       0.998438       0.999782
  22814.648        1.00162        1.00053       0.998425        1.00097
  22819.026        1.00265       0.999445       0.998556        1.00029
  22824.265        1.00463       0.999516       0.998164        1.00102
  22828.958        1.00694       0.998971       0.998043        1.00096
  22835.490        1.0086       0.999172       0.997857        1.00081
  22838.958        1.00911       0.998942       0.998118        1.00065
  22844.191        1.00782       0.998664       0.998401       0.999866
  22849.204        1.00577       0.998187       0.998067       0.998926
  22854.427        1.00191       0.997602       0.99766       0.997936
  22860.514       0.999224       0.997871       0.997749       0.997303
  22863.825       0.996776       0.997674       0.997732       0.997124
  22869.338       0.993052       0.996873       0.997505       0.996335
  22874.050       0.990934       0.996557       0.997053       0.995937
  22879.611       0.989774       0.996453       0.99637       0.994737
  22885.176       0.989528       0.996608       0.996549       0.993786
  22888.867       0.989513       0.996097       0.996167       0.993227
  22894.317       0.989791       0.995521       0.995629       0.991956
  22898.920       0.990775       0.994708       0.995243       0.991608
  22904.509       0.992662       0.995005       0.994281       0.991292
  22909.698       0.994944       0.994939       0.993388       0.990997
  22913.920       0.997272       0.994347       0.992662       0.990758
  22919.233       0.998573       0.993937       0.991748       0.990457