File: Experimental data/Figure 4- Ex situ and in situ-R space.txt
# XDI/1.0 Demeter/0.9.26
# Demeter.output_filetype: multicolumn magnitude of chi(R)
# Element.symbol: Ru
# Element.edge: K
# Column.1: R Angstrom
# Column.2: RuSA-RT-fresh-3
# Column.3: Ru-520H2-RT-2
# Column.4: Ru-520H2-520du-reaction-jinbian-6
# Column.5: Ru-520H2-520du-reaction-jinbian-61
# Column.6: Ru-520H2-520du-reaction-jinbian-62
# Column.7: Ru-520H2-520du-after_reaction-quanpu-RT-2
#------------------------
#  r  RuSA-RT-fresh-3  Ru-520H2-RT-2  Ru-520H2-520du-reaction-jinbian-6  Ru-520H2-520du-reaction-jinbian-61  Ru-520H2-520du-reaction-jinbian-62  Ru-520H2-520du-after_reaction-quanpu-RT-2
  0.0000000       0.112765       0.105345       0.09466   0.0974833   0.0941319   0.106959
  0.0306796   0.11068       0.103462       0.095892   0.0982537   0.0953122   0.104915
  0.0613592   0.104967       0.0982988   0.0993788   0.100486       0.0986518   0.0993051
  0.0920388   0.097291   0.0913429   0.104572       0.103962       0.103621       0.0917283
  0.122718       0.0904215   0.0850531   0.110758       0.108365       0.109528       0.0848709
  0.153398       0.0876506   0.0823502   0.11722       0.113328       0.115678       0.0819744
  0.184078       0.0910499   0.0851237   0.12333       0.118475       0.121459       0.0851171
  0.214757       0.0998137   0.0927674   0.128588       0.123447       0.126389       0.0935177
  0.245437       0.110977       0.102703       0.132628       0.127919       0.130121       0.104249
  0.276117       0.121316       0.112032       0.135222       0.131609       0.132446       0.114159
  0.306796       0.12837       0.118491       0.136276       0.134294       0.133295       0.12086
  0.337476       0.130685       0.120715       0.135835       0.135821       0.132742       0.122947
  0.368155       0.127899       0.118322       0.134097       0.13613       0.131015       0.120061
  0.398835       0.120946       0.11209       0.131429       0.135276       0.128508       0.11308
  0.429515       0.112446       0.104307       0.128377       0.133464       0.125793       0.104512
  0.460194       0.107029       0.0990735   0.12568       0.131091       0.123606       0.0988787
  0.490874       0.110212       0.101421       0.124227       0.128781       0.122805       0.101675
  0.521553       0.124702       0.114078       0.124961       0.127403       0.124244       0.115608
  0.552233       0.148305       0.135336       0.12869       0.12801       0.128601       0.138436
  0.582913       0.176531       0.161188       0.135899       0.131676       0.136222       0.165729
  0.613592       0.205236       0.187822       0.146647       0.139238       0.147065       0.193501
  0.644272       0.231306       0.212336       0.160628       0.151061       0.160788       0.218806
  0.674952       0.252634       0.232729       0.177328       0.167002       0.176892       0.239659
  0.705631       0.268076       0.247848       0.196175       0.18654       0.194847       0.254966
  0.736311       0.277495       0.257416       0.216631       0.208966       0.214171       0.264537
  0.76699       0.281838       0.262084       0.238235       0.233529       0.234458       0.26913
  0.79767       0.283163       0.263459       0.260613       0.259509       0.255389       0.270457
  0.82835       0.284486       0.264011       0.283471       0.286248       0.276721       0.271049
  0.859029       0.289245       0.266706       0.306579       0.31316       0.298276       0.273845
  0.889709       0.300318       0.274263       0.329762       0.339726       0.319922       0.281427
  0.920388       0.318949       0.288237       0.352877       0.3655       0.341564       0.295154
  0.951068       0.34432       0.308471       0.375802       0.390102       0.363119       0.314698
  0.981748       0.374044       0.333307       0.398419       0.413221       0.384504       0.338324
  1.01243       0.405092       0.360314       0.420601       0.434613       0.405623       0.36363
  1.04311       0.434603       0.387045       0.442197       0.454095       0.426354       0.38828
  1.07379       0.460376       0.411538       0.46303       0.471546       0.446539       0.410497
  1.10447       0.48113       0.432582       0.482886       0.486893       0.465982       0.429317
  1.13515       0.496623       0.449823       0.501515       0.50011       0.484447       0.444683
  1.16583       0.507656       0.463745       0.518635       0.5112       0.501662       0.457401
  1.1965       0.515959       0.475539       0.533937       0.520188       0.517326       0.468956
  1.22718       0.52389       0.486834       0.547095       0.527107       0.531118       0.481172
  1.25786       0.533937       0.499293       0.557777       0.531985       0.542708       0.495727
  1.28854       0.548062       0.514152       0.565658       0.534838       0.551771       0.51365
  1.31922       0.567105       0.531815       0.570436       0.53566       0.557996       0.534957
  1.3499       0.590468       0.551678       0.571842       0.534417       0.561105       0.558578
  1.38058       0.616239       0.572218       0.569655       0.531052       0.560858       0.582572
  1.41126       0.641632       0.591295       0.563713       0.525483       0.557066       0.604505
  1.44194       0.663537       0.606534       0.55392       0.517612       0.549599       0.621863
  1.47262       0.678991       0.615678       0.540257       0.507337       0.538392       0.632374
  1.5033       0.68552       0.616856       0.522784       0.49456       0.52345       0.634245
  1.53398       0.68134       0.608758       0.501643       0.479203       0.504847       0.626292
  1.56466       0.665454       0.590725       0.477054       0.461216       0.482729       0.608009
  1.59534       0.637676       0.562779       0.449318       0.440593       0.457312       0.579564
  1.62602       0.598597       0.525599       0.418803       0.417379       0.428874       0.541758
  1.6567       0.549505       0.480452       0.385944       0.391676       0.397752       0.495944
  1.68738       0.492275       0.4291       0.351224       0.363649       0.364334       0.443917
  1.71806       0.429232       0.373678       0.31517       0.333524       0.329047       0.387792
  1.74874       0.363002       0.316563       0.278334       0.30159       0.292355       0.329863
  1.77942       0.296361       0.260244       0.241284       0.268189       0.254738       0.272468
  1.8101       0.23211       0.207197       0.204588       0.233714       0.21669       0.217859
  1.84078       0.172992       0.159774       0.168807       0.198598       0.178705       0.168097
  1.87146       0.121756       0.120086       0.134488       0.163306       0.141264       0.124963
  1.90214       0.081516   0.0897374   0.102186       0.128325       0.104832       0.0898901
  1.93282       0.0563285   0.0691206   0.0725327   0.0941722   0.0698439   0.0638305
  1.9635       0.0484083   0.0563102   0.0465685   0.0614361   0.036708   0.046815
  1.99418       0.0505941   0.0472674   0.0273638   0.031162   0.00604471   0.037168
  2.02485       0.0534125   0.0382847   0.0240812   0.0121467   0.0229145   0.0319231
  2.05553       0.0536079   0.0283441   0.0355703   0.0303754   0.0486144   0.0294894
  2.08621       0.0524761   0.0218635   0.0495617   0.0536212   0.0714187   0.0312426
  2.11689       0.0537307   0.0287233   0.0621976   0.0746663   0.0911621   0.0389054
  2.14757       0.0608357   0.0459121   0.0727167   0.0928029   0.10776       0.0514898
  2.17825       0.0739607   0.0662958   0.0810508   0.107811       0.121189       0.0667264
  2.20893       0.0906137   0.0866791   0.0873512   0.119618       0.131477       0.082653
  2.23961       0.10802       0.10525       0.0918549   0.128246       0.13871       0.0977973
  2.27029       0.124034       0.120751       0.0948255   0.133787       0.143019       0.111085
  2.30097       0.137169       0.132329       0.0965174   0.136403       0.144584       0.121786
  2.33165       0.146493       0.139506       0.0971486   0.136309       0.143632       0.129489
  2.36233       0.151556       0.142166       0.0968838   0.133768       0.14043       0.134071
  2.39301       0.152325       0.140533       0.0958289   0.129085       0.135293       0.135668
  2.42369       0.149127       0.135124       0.094036   0.122597       0.128581       0.134622
  2.45437       0.142575       0.126694       0.091523   0.114672       0.120705       0.131424
  2.48505       0.133496       0.116168       0.0883021   0.105703       0.112136       0.126657
  2.51573       0.122844       0.104566       0.0844189   0.096115   0.10341       0.120934
  2.54641       0.111616       0.0929349   0.0799976   0.0863769   0.0951361   0.114843
  2.57709       0.100772       0.082283   0.0752938   0.0770191   0.0879705   0.108906
  2.60777       0.0911546   0.0735152   0.0707494   0.0686578   0.0825562   0.10355
  2.63845       0.0834182   0.0673524   0.067029   0.0619943   0.0793876   0.0990912
  2.66913       0.0779742   0.0642233   0.06498   0.0577297   0.0786442   0.0957212
  2.69981       0.0749602   0.0641704   0.0654346   0.0563412   0.0801008   0.0935009
  2.73049       0.0742526   0.066859   0.0688713   0.0578241   0.0832015   0.0923546
  2.76117       0.0755162   0.0717028   0.0751855   0.0616683   0.087242   0.0920764
  2.79184       0.0782684   0.0780036   0.0837827   0.0671171   0.0915375   0.0923559
  2.82252       0.081933   0.0850305   0.0938564   0.073442   0.0955113   0.0928234
  2.8532       0.0858859   0.0920549   0.104603       0.0800614   0.0987199   0.0931079
  2.88388       0.0895026   0.0983807   0.115309       0.0865432   0.100847       0.0928972
  2.91456       0.0922131   0.103388       0.125367       0.0925706   0.101692       0.0919913
  2.94524       0.093563   0.106584       0.134268       0.0979086   0.101154       0.0903437
  2.97592       0.0932759   0.107664       0.141594       0.102381       0.0992267   0.0880853
  3.0066       0.0913145   0.106556       0.147012       0.105859       0.095996   0.0855262
  3.03728       0.0879366   0.103475       0.150273       0.108253       0.0916377   0.0831229
  3.06796       0.0837413   0.0989521   0.151211       0.109511       0.0864236   0.0813984
  3.09864       0.0796749   0.0938464   0.149744       0.109621       0.0807295   0.0808129
  3.12932       0.0769248   0.0892894   0.145879       0.108612       0.0750402   0.0816203
  3.16       0.0765985   0.0864848   0.139703       0.106552       0.0699411   0.0837829
  3.19068       0.0792389   0.086325   0.131391       0.103555       0.0660668   0.086998
  3.22136       0.0845325   0.0889888   0.121199       0.0997759   0.063976   0.0908156
  3.25204       0.0914988   0.0938558   0.109472       0.0954117   0.0639671   0.0947726
  3.28272       0.0989328   0.0998229   0.0966469   0.0906932   0.0659447   0.0984867
  3.3134       0.105739       0.105718       0.0832759   0.0858758   0.0694556   0.101695
  3.34408       0.111074       0.110564       0.070076   0.0812219   0.0738636   0.104249
  3.37476       0.114371       0.11367       0.0580227   0.0769753   0.0785237   0.106086
  3.40544       0.115331       0.114643       0.0484689   0.0733272   0.0828787   0.107181
  3.43612       0.113895       0.113361       0.043024   0.0703814   0.0864881   0.107512
  3.4668       0.110214       0.10993       0.042607   0.0681282   0.0890246   0.107022
  3.49748       0.104617       0.104645       0.0463182   0.0664407   0.090261   0.105613
  3.52816       0.09757   0.0979409   0.0521323   0.0650975   0.0900577   0.103155
  3.55884       0.0896361   0.0903433   0.0582924   0.0638236   0.0883512   0.0995134
  3.58952       0.0814257   0.0824108   0.0636881   0.0623362   0.0851449   0.0945899
  3.62019       0.0735371   0.074677   0.0676856   0.0603804   0.0805013   0.0883589
  3.65087       0.0664841   0.0675877   0.069948   0.0577532   0.0745339   0.0809028
  3.68155       0.0606109   0.0614412   0.0703336   0.0543149   0.0673993   0.072437
  3.71223       0.0560187   0.0563491   0.0688446   0.0499936   0.0592892   0.063328
  3.74291       0.0525473   0.0522363   0.0656051   0.044785   0.050422   0.0541076
  3.77359       0.0498401   0.0488911   0.0608554   0.0387539   0.0410339   0.0454827
  3.80427       0.0474685   0.0460457   0.0549647   0.0320425   0.0313704   0.0383135
  3.83495       0.0450497   0.0434513   0.048469   0.0249082   0.0216776   0.0334461
  3.86563       0.042314   0.0409195   0.0421439   0.0178712   0.0121941   0.0312533
  3.89631       0.0391219   0.038331   0.0370865   0.0123182   0.00315053   0.0311967
  3.92699       0.035454   0.0356254   0.034606   0.0115667   0.00530081   0.0321172
  3.95767       0.0313975   0.0327941   0.0355585   0.0163658   0.0129233   0.032954
  3.98835       0.0271478   0.0298896   0.039591   0.0232746   0.0196169   0.0331094
  4.01903       0.0230409   0.0270612   0.0454983   0.0304938   0.0252821   0.0324659
  4.04971       0.0196234   0.0246096   0.0520858   0.0373643   0.0298638   0.0313214
  4.08039       0.0176712   0.0230186   0.0584937   0.0435566   0.0333498   0.0303086
  4.11107       0.0178462   0.022845   0.0641525   0.0488615   0.0357706   0.0302126
  4.14175       0.020045   0.0243886   0.0686894   0.0531341   0.0371979   0.0315995
  4.17243       0.0234893   0.027439   0.0718664   0.0562774   0.0377411   0.0344629
  4.20311       0.0273802   0.0314271   0.0735456   0.058236   0.0375423   0.0382613
  4.23379       0.0311499   0.0357203   0.0736694   0.0589928   0.036769   0.0422544
  4.26447       0.0344193   0.0397686   0.0722487   0.0585672   0.0356025   0.0457675
  4.29515       0.0369316   0.0431318   0.0693527   0.0570122   0.0342242   0.0482904
  4.32583       0.0385185   0.0454761   0.0651016   0.0544119   0.0327954   0.0494932
  4.35651       0.0390854   0.0465727   0.059658   0.0508781   0.0314366   0.0492153
  4.38719       0.0386064   0.0462985   0.0532188   0.046547   0.0302077   0.047449
  4.41786       0.0371205   0.0446382   0.0460068   0.0415767   0.0290992   0.0443192
  4.44854       0.034727   0.0416834   0.0382623   0.0361465   0.0280373   0.0400595
  4.47922       0.0315789   0.0376284   0.0302342   0.0304608   0.0269037   0.0349861
  4.5099       0.0278753   0.0327639   0.0221719   0.0247648   0.0255627   0.0294689
  4.54058       0.0238544   0.027473   0.0143186   0.0193901   0.0238859   0.0239049
  4.57126       0.019791   0.0222344   0.00691292   0.0148672   0.0217715   0.0186938
  4.60194       0.016003   0.0176362   0.000871704   0.0120922   0.0191548   0.0142194
  4.63262       0.0128661   0.0143461   0.00600978   0.0119643   0.0160159   0.0108203
  4.6633       0.0107889   0.0128229   0.0110387   0.0141037   0.0123875   0.00869423
  4.69398       0.0100108   0.0127675   0.0150434   0.0172632   0.00839005   0.00771146
  4.72466       0.0102984   0.0132468   0.017949   0.0205955   0.00449585   0.00742915
  4.75534       0.0110824   0.0134354   0.0197367   0.0237056   0.0037455   0.00746776
  4.78602       0.0118727   0.0128993   0.0204373   0.0264207   0.00770607   0.00773859
  4.8167       0.0123917   0.0115153   0.0201355   0.0286726   0.0126027   0.00832945
  4.84738       0.0125188   0.00938527   0.0189813   0.0304493   0.0175822   0.00928563
  4.87806       0.0122317   0.00685183   0.0172148   0.0317726   0.0223881   0.0105024
  4.90874       0.0115821   0.0048094   0.0152191   0.0326862   0.0268499   0.0117766
  4.93942       0.0107023   0.00506004   0.0135986   0.0332478   0.0308264   0.0129042
  4.9701       0.00983732   0.00745311   0.0131485   0.0335228   0.0341977   0.0137433
  5.00078       0.00936919   0.0103052   0.0144029   0.0335789   0.0368653   0.0142432
  5.03146       0.00971587   0.012855   0.0171498   0.0334802   0.0387545   0.0144526
  5.06214       0.011048   0.0147994   0.0207645   0.0332834   0.039816   0.0145122
  5.09282       0.0131698   0.0160295   0.024695   0.0330337   0.0400272   0.0146194
  5.1235       0.0157273   0.0165861   0.0285565   0.0327626   0.0393934   0.0149604
  5.15418       0.0183894   0.016662   0.0320832   0.0324865   0.0379477   0.0156276
  5.18486       0.0208868   0.0166018   0.0350849   0.0322078   0.0357511   0.0165786
  5.21553       0.0230058   0.0168487   0.0374242   0.0319164   0.0328927   0.0176708
  5.24621       0.0245834   0.0177838   0.0390062   0.0315932   0.0294909   0.0187374
  5.27689       0.025509   0.0195249   0.0397731   0.0312131   0.0256982   0.0196554
  5.30757       0.0257301   0.0218753   0.0397017   0.0307479   0.0217147   0.0203849
  5.33825       0.0252586   0.0244619   0.0388012   0.0301698   0.0178191   0.0209775
  5.36893       0.024176   0.0268882   0.0371119   0.029453   0.0144359   0.0215568
  5.39961       0.0226359   0.0288151   0.0347041   0.0285755   0.0122069   0.0222689
  5.43029       0.0208608   0.0299868   0.0316782   0.0275201   0.0117849   0.0232106
  5.46097       0.0191257   0.0302371   0.0281664   0.0262754   0.01314   0.0243689
  5.49165       0.0177116   0.0294896   0.0243396   0.0248362   0.0155241   0.0256036
  5.52233       0.0168178   0.027755   0.0204262   0.023204   0.0182174   0.0266795
  5.55301       0.0164624   0.0251272   0.0167522   0.0213872   0.0207861   0.0273219
  5.58369       0.0164604   0.021781   0.01381   0.0194018   0.0229913   0.0272694
  5.61437       0.0165118   0.0179754   0.0122572   0.0172719   0.0247013   0.0263112
  5.64505       0.0163225   0.0140804   0.0125185   0.0150305   0.0258464   0.0243108
  5.67573       0.01568   0.0106636   0.0142483   0.0127218   0.0263983   0.021218
  5.70641       0.0144815   0.00861524   0.0166875   0.0104059   0.0263598   0.017073
  5.73709       0.012742   0.00868045   0.019242   0.0081715   0.0257585   0.0120044
  5.76777       0.0106145   0.0102698   0.0215619   0.0061698   0.0246426   0.00623357
  5.79845       0.0084587   0.012213   0.023449   0.00469388   0.0230776   0.00105079
  5.82913       0.00699464   0.0138235   0.0247923   0.0042014   0.0211433   0.00667798
  5.85981       0.00713856   0.0148143   0.0255342   0.00480514   0.0189317   0.0129502
  5.89049       0.00884938   0.0151066   0.0256558   0.00598792   0.016545   0.0187925
  5.92117       0.0112198   0.0147491   0.0251683   0.0072823   0.0140958   0.023902
  5.95185       0.0135684   0.0138891   0.0241084   0.00845889   0.0117086   0.0280411
  5.98253       0.0155358   0.0127606   0.0225355   0.00940739   0.00952551   0.0310412
  6.0132       0.0169389   0.01167   0.02053   0.0100689   0.00771211   0.032813
  6.04388       0.0177056   0.0109449   0.0181937   0.0104112   0.00644429   0.0333515
  6.07456       0.0178515   0.0108077   0.0156529   0.0104189   0.00582509   0.0327365
  6.10524       0.0174697   0.011242   0.0130695   0.0100903   0.00575416   0.0311252
  6.13592       0.0167188   0.0120166   0.0106638   0.00943527   0.00595393   0.0287386
  6.1666       0.0158037   0.0128482   0.00875283   0.00847443   0.00614894   0.0258413
  6.19728       0.0149371   0.0135236   0.00773323   0.00723912   0.00615884   0.0227124
  6.22796       0.0142799   0.0139355   0.00782375   0.00577356   0.00588947   0.0196082
  6.25864       0.0138778   0.0140788   0.00876477   0.0041456   0.00530619   0.0167148
  6.28932       0.0136393   0.0140346   0.0100661   0.00251049   0.00442161   0.0141016
  6.32       0.0133783   0.0139451   0.0113526   0.00159315   0.0033139   0.0117005
  6.35068       0.0128926   0.0139707   0.0124048   0.00266021   0.00226516   0.00933397
  6.38136       0.0120284   0.0142299   0.0131005   0.00450872   0.00220484   0.00679043
  6.41204       0.010722   0.0147449   0.0133747   0.00647423   0.00358074   0.00390324
  6.44272       0.00903692   0.01543   0.0131987   0.00841081   0.00557556   0.00060355
  6.4734       0.00724938   0.0161269   0.0125707   0.0102536   0.00780223   0.00310373
  6.50408       0.00604995   0.0166587   0.011511   0.0119604   0.0101176   0.00707584
  6.53476       0.0064485   0.0168718   0.0100611   0.0135012   0.0124356   0.0111426
  6.56544       0.00847309   0.0166603   0.00828646   0.0148557   0.0146884   0.015084
  6.59612       0.0112503   0.0159791   0.00629516   0.0160127   0.0168176   0.0186674
  6.6268       0.0141426   0.0148523   0.00431838   0.0169696   0.0187725   0.0216716
  6.65748       0.016793   0.0133848   0.00307195   0.017732   0.0205095   0.0239073
  6.68816       0.0189803   0.0117818   0.00380208   0.0183124   0.0219928   0.0252337
  6.71884       0.0205641   0.0103742   0.00588539   0.0187299   0.0231941   0.0255712
  6.74952       0.0214685   0.00959671   0.00832402   0.0190076   0.0240932   0.0249093
  6.7802       0.0216773   0.00978033   0.0107785   0.0191714   0.0246777   0.02331
  6.81087       0.0212315   0.0108542   0.0131063   0.0192473   0.0249431   0.0209086
  6.84155       0.0202256   0.0124179   0.0152199   0.0192596   0.0248921   0.0179145
  6.87223       0.0188013   0.0140517   0.0170561   0.0192282   0.0245346   0.0146194
  6.90291       0.0171384   0.0154498   0.0185667   0.0191671   0.0238863   0.0114285
  6.93359       0.0154392   0.0164134   0.019717   0.0190837   0.0229686   0.00892429
  6.96427       0.0139022   0.0168239   0.020484   0.0189783   0.0218073   0.00779763
  6.99495       0.0126782   0.0166239   0.0208568   0.018845   0.0204317   0.008179
  7.02563       0.0118189   0.0158062   0.0208357   0.0186734   0.0188739   0.00928043
  7.05631       0.011251   0.0144052   0.0204318   0.0184504   0.0171674   0.0102755
  7.08699       0.0108099   0.0124897   0.0196664   0.0181623   0.0153465   0.0107115
  7.11767       0.010312   0.0101555   0.0185702   0.017797   0.0134454   0.0103938
  7.14835       0.0096149   0.00751786   0.0171832   0.0173451   0.0114973   0.00927862
  7.17903       0.0086455   0.00470667   0.0155538   0.0168015   0.0095336   0.007433
  7.20971       0.00740777   0.00189172   0.0137406   0.0161657   0.00758395   0.00506911
  7.24039       0.0059964   0.00123352   0.0118155   0.0154418   0.00567605   0.00296625
  7.27107       0.00465438   0.00375444   0.00987347   0.014639   0.00383796   0.00377796
  7.30175       0.00390631   0.00611922   0.00805485   0.0137701   0.00211211   0.00692067
  7.33243       0.0043409   0.00816316   0.00658991   0.0128516   0.000763323   0.0104991
  7.36311       0.00573989   0.00982896   0.00582677   0.0119021   0.00145762   0.0140201
  7.39379       0.00751787   0.0110891   0.00604584   0.0109417   0.00283936   0.0172598
  7.42447       0.00933992   0.0119396   0.00712299   0.00999029   0.00417033   0.0200688
  7.45515       0.0110442   0.0123959   0.0086947   0.00906663   0.00540323   0.022342
  7.48583       0.0125434   0.0124904   0.010488   0.00818711   0.00653334   0.0240119
  7.51651       0.013786   0.0122683   0.0123591   0.00736478   0.00756548   0.0250442
  7.54719       0.0147402   0.0117857   0.0142387   0.00660875   0.00850916   0.0254323
  7.57787       0.0153859   0.0111086   0.0160949   0.00592426   0.00937705   0.0251921
  7.60854       0.0157105   0.0103156   0.0179152   0.00531352   0.010184   0.0243557
  7.63922       0.0157081   0.00950444   0.019696   0.00477745   0.0109461   0.0229662
  7.6699       0.015382   0.00880039   0.0214375   0.00431809   0.0116793   0.0210735
  7.70058       0.0147513   0.00835776   0.0231399   0.00394098   0.0123986   0.0187323
  7.73126       0.0138609   0.00833221   0.0248005   0.00365626   0.0131163   0.0160029
  7.76194       0.0127965   0.00881643   0.026412   0.00347678   0.0138407   0.0129552
  7.79262       0.0117043   0.00979129   0.0279623   0.00341215   0.0145751   0.00968096
  7.8233       0.0108059   0.0111491   0.0294336   0.00346107   0.0153172   0.00634185
  7.85398       0.0103771   0.0127526   0.0308037   0.0036074   0.0160583   0.00347845
  7.88466       0.0106382   0.0144708   0.0320466   0.00382296   0.0167844   0.00344466
  7.91534       0.0116068   0.0161881   0.0331339   0.0040745   0.0174762   0.00627092
  7.94602       0.01309   0.0178025   0.0340365   0.00432998   0.0181102   0.00956118
  7.9767       0.0148163   0.0192234   0.034726   0.00456245   0.0186602   0.0127435
  8.00738       0.0165389   0.0203703   0.0351768   0.00475215   0.0190986   0.0156337
  8.03806       0.0180646   0.0211739   0.0353672   0.00488822   0.0193982   0.018122
  8.06874       0.0192528   0.021578   0.0352808   0.00497044   0.0195334   0.0201307
  8.09942       0.0200083   0.0215417   0.0349086   0.00501151   0.0194823   0.021607
  8.1301       0.0202772   0.0210415   0.0342495   0.00503908   0.0192286   0.0225219
  8.16078       0.0200437   0.0200736   0.0333123   0.00509629   0.0187637   0.0228702
  8.19146       0.0193272   0.0186547   0.0321167   0.0052376   0.0180895   0.0226694
  8.22214       0.0181793   0.0168232   0.0306949   0.00551748   0.017222   0.0219581
  8.25282       0.01668   0.0146397   0.0290934   0.00597406   0.0161962   0.0207936
  8.2835       0.0149349   0.0121886   0.0273752   0.00661726   0.0150733   0.0192497
  8.31418       0.0130737   0.00958371   0.0256214   0.00742872   0.0139505   0.0174154
  8.34486       0.011253   0.00699255   0.0239325   0.00837086   0.0129702   0.015397
  8.37554       0.00966342   0.00473376   0.0224269   0.00939686   0.012319   0.0133252
  8.40621       0.00852948   0.00357518   0.0212319   0.0104573   0.0121933   0.0113724
  8.43689       0.0080611   0.00426687   0.0204647   0.0115036   0.012722   0.00977663
  8.46757       0.00833459   0.00592827   0.0202025   0.0124894   0.0139014   0.00883945
  8.49825       0.00923372   0.00768789   0.020456   0.0133716   0.0156105   0.00880243
  8.52893       0.0105571   0.00924919   0.0211629   0.0141111   0.0176813   0.00963829
  8.55961       0.0121354   0.0105248   0.0222072   0.0146732   0.0199527   0.0110709
  8.59029       0.0138543   0.0115132   0.0234507   0.0150288   0.0222888   0.0127965
  8.62097       0.0156332   0.0122666   0.0247589   0.0151548   0.0245783   0.0145933
  8.65165       0.0174023   0.012875   0.0260142   0.0150349   0.0267302   0.0163165
  8.68233       0.0190914   0.0134481   0.0271208   0.0146609   0.0286692   0.0178701
  8.71301       0.0206266   0.0140898   0.0280041   0.0140328   0.0303339   0.0191895
  8.74369       0.021933   0.0148677   0.0286093   0.0131607   0.0316749   0.0202318
  8.77437       0.0229395   0.0157923   0.0288991   0.0120656   0.0326545   0.0209713
  8.80505       0.0235851   0.0168138   0.0288519   0.0107828   0.0332469   0.0213971
  8.83573       0.023824   0.017838   0.0284605   0.00936787   0.0334378   0.0215113
  8.86641       0.0236304   0.018749   0.0277311   0.00790877   0.0332247   0.0213266
  8.89709       0.0230014   0.0194309   0.026682   0.00655348   0.0326171   0.0208642
  8.92777       0.0219579   0.0197826   0.0253427   0.00555207   0.0316359   0.0201507
  8.95845       0.0205458   0.0197284   0.0237534   0.00523666   0.0303136   0.0192153
  8.98913       0.0188345   0.0192235   0.0219639   0.00576291   0.0286934   0.0180867
  9.01981       0.0169166   0.0182581   0.0200334   0.00691543   0.0268294   0.0167916
  9.05049       0.0149071   0.0168606   0.0180301   0.00837024   0.0247858   0.0153538
  9.08117       0.0129436   0.0151008   0.0160319   0.00989904   0.0226368   0.0137948
  9.11185       0.0111854   0.0130987   0.0141263   0.0113628   0.0204661   0.0121361
  9.14253       0.00980157   0.0110418   0.0124099   0.0126723   0.0183668   0.0104034
  9.17321       0.00892964   0.00921883   0.0109833   0.0137661   0.016439   0.00863322
  9.20388       0.00860195   0.00803925   0.00993433   0.0146005   0.0147837   0.00688551
  9.23456       0.00870445   0.00787818   0.00930723   0.015145   0.013489   0.00527263
  9.26524       0.00903414   0.00870463   0.0090725   0.0153808   0.0126069   0.00402702
  9.29592       0.0093944   0.0100927   0.00912841   0.0153001   0.0121286   0.00355181
  9.3266       0.00964303   0.0116139   0.00934   0.014906   0.0119789   0.00403889
  9.35728       0.00969418   0.012992   0.00958209   0.0142123   0.0120386   0.0050982
  9.38796       0.0095051   0.0140716   0.00976079   0.0132447   0.0121794   0.00630985
  9.41864       0.00906315   0.0147743   0.00981595   0.0120414   0.0122906   0.00745872
  9.44932       0.00837643   0.0150739   0.00971579   0.0106567   0.0122903   0.00844219
  9.48       0.00746743   0.0149832   0.00945068   0.00916713   0.0121252   0.00920993
  9.51068       0.0063692   0.0145466   0.00902785   0.00768599   0.0117668   0.00974241
  9.54136       0.00512451   0.0138331   0.00846755   0.00639111   0.011206   0.0100437
  9.57204       0.00379186   0.0129311   0.00780014   0.00555035   0.0104494   0.0101384
  9.60272       0.00248037   0.0119408   0.00706391   0.00543709   0.00951501   0.0100701
  9.6334       0.0015549   0.0109656   0.00630322   0.00606862   0.00843035   0.00989815
  9.66408       0.00188833   0.0100984   0.00556649   0.00717462   0.00722982   0.00969212
  9.69476       0.00308901   0.00940561   0.00490294   0.0084654   0.00595381   0.00952254
  9.72544       0.00445866   0.00891125   0.00435607   0.00974934   0.00464982   0.00944734
  9.75612       0.00581036   0.0085918   0.0039526   0.0109108   0.0033801   0.00949787
  9.7868       0.00707754   0.00838874   0.0036899   0.0118784   0.00225527   0.00967108
  9.81748       0.00822175   0.00823214   0.0035323   0.0126074   0.00156298   0.00993283
  9.84816       0.0092148   0.00806207   0.00342291   0.013072   0.00173549   0.0102303
  9.87884       0.010034   0.00784001   0.00330278   0.0132617   0.00246628   0.0105066
  9.90952       0.010661   0.00755075   0.00312429   0.0131803   0.00328994   0.0107127
  9.9402       0.0110807   0.00719886   0.00285549   0.0128457   0.00404843   0.0108136
  9.97088       0.0112824   0.00680303   0.00247893   0.0122908   0.00469173   0.0107929